"trial_type","trial_index","time_elapsed","internal_node_id","subject","success","rt","stimulus","button_pressed","key_press","condition","order","button0","button1"
"pavlovia","0","6","0.0-0.0","7qwwgngua01jqlk","","","","","","","","",""
"fullscreen","1","5247","0.0-1.0","7qwwgngua01jqlk","true","","","","","","","",""
"html-button-response","2","15648","0.0-2.0","7qwwgngua01jqlk","","10395.400000008522","Let's start!","0","","","","",""
"audio-keyboard-response","3","17262","0.0-3.0","7qwwgngua01jqlk","","null","audio/puppy.mp3","","null","","","",""
"html-button-response","4","18729","0.0-4.0","7qwwgngua01jqlk","","1460.5000000155997","","1","","","","",""
"audio-keyboard-response","5","20404","0.0-5.0","7qwwgngua01jqlk","","null","audio/apple.mp3","","null","","","",""
"html-button-response","6","20786","0.0-6.0","7qwwgngua01jqlk","","377.5000000023283","","0","","","","",""
"audio-keyboard-response","7","22789","0.0-7.0","7qwwgngua01jqlk","","null","audio/goodjob.mp3","","null","","","",""
"audio-keyboard-response","8","25794","0.0-8.0","7qwwgngua01jqlk","","null","audio/norm_touch_duck.mp3","","null","","","",""
"video-keyboard-response-mod","9","42334","0.0-9.0","7qwwgngua01jqlk","","null","","","null","nsc-label-first","1-1","",""
"audio-keyboard-response","10","46203","0.0-10.0","7qwwgngua01jqlk","","null","audio/norm_nissle.mp3","","null","","","",""
"html-button-response","11","63314","0.0-11.0","7qwwgngua01jqlk","","17100.800000014715","","0","","nsc-label-first","1-1","<img src=""img/2.png"" width=""40%"" />","<img src=""img/6.png"" width=""40%"" />"
"audio-keyboard-response","12","66697","0.0-12.0","7qwwgngua01jqlk","","null","audio/norm_fopin.mp3","","null","","","",""
"html-button-response","13","68295","0.0-13.0","7qwwgngua01jqlk","","1592.0999999798369","","1","","nsc-label-first","1-1","<img src=""img/2.png"" width=""40%"" />","<img src=""img/6.png"" width=""40%"" />"
"audio-keyboard-response","14","71657","0.0-14.0","7qwwgngua01jqlk","","null","audio/norm_nissle.mp3","","null","","","",""
"html-button-response","15","72850","0.0-15.0","7qwwgngua01jqlk","","1189.4000000029337","","1","","nsc-label-first","1-1","<img src=""img/6.png"" width=""40%"" />","<img src=""img/2.png"" width=""40%"" />"
"audio-keyboard-response","16","76220","0.0-16.0","7qwwgngua01jqlk","","null","audio/norm_fopin.mp3","","null","","","",""
"html-button-response","17","77328","0.0-17.0","7qwwgngua01jqlk","","1104.300000006333","","1","","nsc-label-first","1-1","<img src=""img/2.png"" width=""40%"" />","<img src=""img/6.png"" width=""40%"" />"
"audio-keyboard-response","18","80834","0.0-18.0","7qwwgngua01jqlk","","null","audio/goodjob.mp3","","null","","","",""
"audio-keyboard-response","19","83836","0.0-19.0","7qwwgngua01jqlk","","null","audio/norm_touch_duck.mp3","","null","","","",""
"video-keyboard-response-mod","20","103307","0.0-20.0","7qwwgngua01jqlk","","null","","","null","nsc-label-first","1-1","",""
"audio-keyboard-response","21","107177","0.0-21.0","7qwwgngua01jqlk","","null","audio/norm_dakup.mp3","","null","","","",""
"html-button-response","22","116690","0.0-22.0","7qwwgngua01jqlk","","9508.300000015879","","0","","nsc-label-first","1-1","<img src=""img/14.png"" width=""40%"" />","<img src=""img/13.png"" width=""40%"" />"
"audio-keyboard-response","23","120075","0.0-23.0","7qwwgngua01jqlk","","null","audio/norm_chamu.mp3","","null","","","",""
"html-button-response","24","120913","0.0-24.0","7qwwgngua01jqlk","","828.0000000086147","","1","","nsc-label-first","1-1","<img src=""img/14.png"" width=""40%"" />","<img src=""img/13.png"" width=""40%"" />"
"audio-keyboard-response","25","124277","0.0-25.0","7qwwgngua01jqlk","","null","audio/norm_dakup.mp3","","null","","","",""
"html-button-response","26","126454","0.0-26.0","7qwwgngua01jqlk","","2173.6999999848194","","1","","nsc-label-first","1-1","<img src=""img/13.png"" width=""40%"" />","<img src=""img/14.png"" width=""40%"" />"
"audio-keyboard-response","27","129835","0.0-27.0","7qwwgngua01jqlk","","null","audio/norm_chamu.mp3","","null","","","",""
"html-button-response","28","130758","0.0-28.0","7qwwgngua01jqlk","","917.9999999760184","","0","","nsc-label-first","1-1","<img src=""img/13.png"" width=""40%"" />","<img src=""img/14.png"" width=""40%"" />"
"audio-keyboard-response","29","134264","0.0-29.0","7qwwgngua01jqlk","","null","audio/goodjob.mp3","","null","","","",""
"audio-keyboard-response","30","137266","0.0-30.0","7qwwgngua01jqlk","","null","audio/norm_touch_duck.mp3","","null","","","",""
"video-keyboard-response-mod","31","155407","0.0-31.0","7qwwgngua01jqlk","","null","","","null","nsc-label-last","1-1","",""
"audio-keyboard-response","32","159275","0.0-32.0","7qwwgngua01jqlk","","null","audio/norm_zibo.mp3","","null","","","",""
"html-button-response","33","165019","0.0-33.0","7qwwgngua01jqlk","","5733.399999997346","","0","","nsc-label-last","1-1","<img src=""img/16.png"" width=""40%"" />","<img src=""img/12.png"" width=""40%"" />"
"audio-keyboard-response","34","168393","0.0-34.0","7qwwgngua01jqlk","","null","audio/norm_zibo.mp3","","null","","","",""
"html-button-response","35","170542","0.0-35.0","7qwwgngua01jqlk","","2142.699999996694","","0","","nsc-label-last","1-1","<img src=""img/12.png"" width=""40%"" />","<img src=""img/16.png"" width=""40%"" />"
"audio-keyboard-response","36","173916","0.0-36.0","7qwwgngua01jqlk","","null","audio/norm_miffle.mp3","","null","","","",""
"html-button-response","37","174651","0.0-37.0","7qwwgngua01jqlk","","729.2000000015832","","0","","nsc-label-last","1-1","<img src=""img/16.png"" width=""40%"" />","<img src=""img/12.png"" width=""40%"" />"
"audio-keyboard-response","38","178018","0.0-38.0","7qwwgngua01jqlk","","null","audio/norm_miffle.mp3","","null","","","",""
"html-button-response","39","178616","0.0-39.0","7qwwgngua01jqlk","","594.2999999970198","","0","","nsc-label-last","1-1","<img src=""img/16.png"" width=""40%"" />","<img src=""img/12.png"" width=""40%"" />"
"audio-keyboard-response","40","182120","0.0-40.0","7qwwgngua01jqlk","","null","audio/norm_touch_duck.mp3","","null","","","",""
"video-keyboard-response-mod","41","198955","0.0-41.0","7qwwgngua01jqlk","","null","","","null","nsc-label-last","1-1","",""
"audio-keyboard-response","42","202833","0.0-42.0","7qwwgngua01jqlk","","null","audio/norm_vugim.mp3","","null","","","",""
"html-button-response","43","210521","0.0-43.0","7qwwgngua01jqlk","","7685.400000016671","","0","","nsc-label-last","1-1","<img src=""img/8.png"" width=""40%"" />","<img src=""img/4.png"" width=""40%"" />"
"audio-keyboard-response","44","213893","0.0-44.0","7qwwgngua01jqlk","","null","audio/norm_vugim.mp3","","null","","","",""
"html-button-response","45","215432","0.0-45.0","7qwwgngua01jqlk","","1536.4000000117812","","1","","nsc-label-last","1-1","<img src=""img/4.png"" width=""40%"" />","<img src=""img/8.png"" width=""40%"" />"
"audio-keyboard-response","46","218804","0.0-46.0","7qwwgngua01jqlk","","null","audio/norm_reko.mp3","","null","","","",""
"html-button-response","47","219349","0.0-47.0","7qwwgngua01jqlk","","540.6000000075437","","1","","nsc-label-last","1-1","<img src=""img/8.png"" width=""40%"" />","<img src=""img/4.png"" width=""40%"" />"
"audio-keyboard-response","48","222723","0.0-48.0","7qwwgngua01jqlk","","null","audio/norm_reko.mp3","","null","","","",""
"html-button-response","49","223165","0.0-49.0","7qwwgngua01jqlk","","436.5000000107102","","1","","nsc-label-last","1-1","<img src=""img/8.png"" width=""40%"" />","<img src=""img/4.png"" width=""40%"" />"
"audio-keyboard-response","50","226668","0.0-50.0","7qwwgngua01jqlk","","null","audio/goodjob.mp3","","null","","","",""
"audio-keyboard-response","51","229670","0.0-51.0","7qwwgngua01jqlk","","null","audio/norm_touch_duck.mp3","","null","","","",""
"video-keyboard-response-mod","52","247352","0.0-52.0","7qwwgngua01jqlk","","null","","","null","sc-label-last","1-1","",""
"audio-keyboard-response","53","251232","0.0-53.0","7qwwgngua01jqlk","","null","audio/norm_tentle.mp3","","null","","","",""
"html-button-response","54","257284","0.0-54.0","7qwwgngua01jqlk","","6047.400000010384","","0","","sc-label-last","1-1","<img src=""img/3.png"" width=""40%"" />","<img src=""img/7.png"" width=""40%"" />"
"audio-keyboard-response","55","260660","0.0-55.0","7qwwgngua01jqlk","","null","audio/norm_tentle.mp3","","null","","","",""
"html-button-response","56","261561","0.0-56.0","7qwwgngua01jqlk","","888.7999999860767","","0","","sc-label-last","1-1","<img src=""img/3.png"" width=""40%"" />","<img src=""img/7.png"" width=""40%"" />"
"audio-keyboard-response","57","264936","0.0-57.0","7qwwgngua01jqlk","","null","audio/norm_paegu.mp3","","null","","","",""
"html-button-response","58","266837","0.0-58.0","7qwwgngua01jqlk","","1894.0000000002328","","1","","sc-label-last","1-1","<img src=""img/7.png"" width=""40%"" />","<img src=""img/3.png"" width=""40%"" />"
"audio-keyboard-response","59","270216","0.0-59.0","7qwwgngua01jqlk","","null","audio/norm_paegu.mp3","","null","","","",""
"html-button-response","60","271869","0.0-60.0","7qwwgngua01jqlk","","1645.5999999889173","","1","","sc-label-last","1-1","<img src=""img/3.png"" width=""40%"" />","<img src=""img/7.png"" width=""40%"" />"
"audio-keyboard-response","61","275373","0.0-61.0","7qwwgngua01jqlk","","null","audio/goodjob.mp3","","null","","","",""
"audio-keyboard-response","62","278376","0.0-62.0","7qwwgngua01jqlk","","null","audio/norm_touch_duck.mp3","","null","","","",""
"video-keyboard-response-mod","63","300417","0.0-63.0","7qwwgngua01jqlk","","null","","","null","sc-label-last","1-1","",""
"audio-keyboard-response","64","304295","0.0-64.0","7qwwgngua01jqlk","","null","audio/norm_klefu.mp3","","null","","","",""
"html-button-response","65","306555","0.0-65.0","7qwwgngua01jqlk","","2249.600000010105","","0","","sc-label-last","1-1","<img src=""img/10.png"" width=""40%"" />","<img src=""img/11.png"" width=""40%"" />"
"audio-keyboard-response","66","309934","0.0-66.0","7qwwgngua01jqlk","","null","audio/norm_klefu.mp3","","null","","","",""
"html-button-response","67","310730","0.0-67.0","7qwwgngua01jqlk","","786.999999982072","","1","","sc-label-last","1-1","<img src=""img/11.png"" width=""40%"" />","<img src=""img/10.png"" width=""40%"" />"
"audio-keyboard-response","68","314114","0.0-68.0","7qwwgngua01jqlk","","null","audio/norm_jimo.mp3","","null","","","",""
"html-button-response","69","316101","0.0-69.0","7qwwgngua01jqlk","","1977.8999999980442","","1","","sc-label-last","1-1","<img src=""img/10.png"" width=""40%"" />","<img src=""img/11.png"" width=""40%"" />"
"audio-keyboard-response","70","319476","0.0-70.0","7qwwgngua01jqlk","","null","audio/norm_jimo.mp3","","null","","","",""
"html-button-response","71","322865","0.0-71.0","7qwwgngua01jqlk","","3384.699999995064","","1","","sc-label-last","1-1","<img src=""img/11.png"" width=""40%"" />","<img src=""img/10.png"" width=""40%"" />"
"audio-keyboard-response","72","326370","0.0-72.0","7qwwgngua01jqlk","","null","audio/goodjob.mp3","","null","","","",""
"audio-keyboard-response","73","329372","0.0-73.0","7qwwgngua01jqlk","","null","audio/norm_touch_duck.mp3","","null","","","",""
"video-keyboard-response-mod","74","349370","0.0-74.0","7qwwgngua01jqlk","","null","","","null","sc-label-first","1-1","",""
"audio-keyboard-response","75","353240","0.0-75.0","7qwwgngua01jqlk","","null","audio/norm_blicket.mp3","","null","","","",""
"html-button-response","76","354380","0.0-76.0","7qwwgngua01jqlk","","1128.8000000058673","","0","","sc-label-first","1-1","<img src=""img/1.png"" width=""40%"" />","<img src=""img/5.png"" width=""40%"" />"
"audio-keyboard-response","77","357754","0.0-77.0","7qwwgngua01jqlk","","null","audio/norm_blicket.mp3","","null","","","",""
"html-button-response","78","359501","0.0-78.0","7qwwgngua01jqlk","","1734.9999999860302","","0","","sc-label-first","1-1","<img src=""img/1.png"" width=""40%"" />","<img src=""img/5.png"" width=""40%"" />"
"audio-keyboard-response","79","362878","0.0-79.0","7qwwgngua01jqlk","","null","audio/norm_toma.mp3","","null","","","",""
"html-button-response","80","363204","0.0-80.0","7qwwgngua01jqlk","","316.499999986263","","0","","sc-label-first","1-1","<img src=""img/5.png"" width=""40%"" />","<img src=""img/1.png"" width=""40%"" />"
"audio-keyboard-response","81","366575","0.0-81.0","7qwwgngua01jqlk","","null","audio/norm_toma.mp3","","null","","","",""
"html-button-response","82","369849","0.0-82.0","7qwwgngua01jqlk","","3266.8000000121538","","0","","sc-label-first","1-1","<img src=""img/5.png"" width=""40%"" />","<img src=""img/1.png"" width=""40%"" />"
"audio-keyboard-response","83","373355","0.0-83.0","7qwwgngua01jqlk","","null","audio/goodjob.mp3","","null","","","",""
"audio-keyboard-response","84","376358","0.0-84.0","7qwwgngua01jqlk","","null","audio/norm_touch_duck.mp3","","null","","","",""
"video-keyboard-response-mod","85","392887","0.0-85.0","7qwwgngua01jqlk","","null","","","null","sc-label-first","1-1","",""
"audio-keyboard-response","86","396758","0.0-86.0","7qwwgngua01jqlk","","null","audio/norm_gazzer.mp3","","null","","","",""
"html-button-response","87","400781","0.0-87.0","7qwwgngua01jqlk","","4012.400000006892","","0","","sc-label-first","1-1","<img src=""img/15.png"" width=""40%"" />","<img src=""img/9.png"" width=""40%"" />"
"audio-keyboard-response","88","404154","0.0-88.0","7qwwgngua01jqlk","","null","audio/norm_gazzer.mp3","","null","","","",""
"html-button-response","89","406524","0.0-89.0","7qwwgngua01jqlk","","2362.8000000026077","","0","","sc-label-first","1-1","<img src=""img/9.png"" width=""40%"" />","<img src=""img/15.png"" width=""40%"" />"
"audio-keyboard-response","90","409898","0.0-90.0","7qwwgngua01jqlk","","null","audio/norm_numo.mp3","","null","","","",""
"html-button-response","91","411045","0.0-91.0","7qwwgngua01jqlk","","1143.7999999907333","","0","","sc-label-first","1-1","<img src=""img/15.png"" width=""40%"" />","<img src=""img/9.png"" width=""40%"" />"
"audio-keyboard-response","92","414415","0.0-92.0","7qwwgngua01jqlk","","null","audio/norm_numo.mp3","","null","","","",""
"html-button-response","93","415435","0.0-93.0","7qwwgngua01jqlk","","1015.8999999985099","","0","","sc-label-first","1-1","<img src=""img/15.png"" width=""40%"" />","<img src=""img/9.png"" width=""40%"" />"
"audio-keyboard-response","94","418939","0.0-94.0","7qwwgngua01jqlk","","null","audio/goodjob.mp3","","null","","","",""
"image-keyboard-response","95","421943","0.0-95.0","7qwwgngua01jqlk","","null","img/welldone.jpg","","null","","","",""
