"trial_type","trial_index","time_elapsed","internal_node_id","subject","success","rt","stimulus","button_pressed","key_press","button0","button1","condition","order"
"pavlovia","0","6","0.0-0.0","fm8l2t84k1mndc6","","","","","","","","",""
"fullscreen","1","3738","0.0-1.0","fm8l2t84k1mndc6","true","","","","","","","",""
"html-button-response","2","18225","0.0-2.0","fm8l2t84k1mndc6","","14477.000000000004","Let's start!","0","","","","",""
"audio-keyboard-response","3","19981","0.0-3.0","fm8l2t84k1mndc6","","null","audio/puppy.mp3","","null","","","",""
"html-button-response","4","21769","0.0-4.0","fm8l2t84k1mndc6","","1786","","1","","<img src=""img/puppy.png"" width=""40%"" />","<img src=""img/apple.png"" width=""40%"" />","",""
"audio-keyboard-response","5","23473","0.0-5.0","fm8l2t84k1mndc6","","null","audio/apple.mp3","","null","","","",""
"html-button-response","6","24722","0.0-6.0","fm8l2t84k1mndc6","","1245.9999999999964","","0","","<img src=""img/apple.png"" width=""40%"" />","<img src=""img/puppy.png"" width=""40%"" />","",""
"audio-keyboard-response","7","26725","0.0-7.0","fm8l2t84k1mndc6","","null","audio/goodjob.mp3","","null","","","",""
"audio-keyboard-response","8","29729","0.0-8.0","fm8l2t84k1mndc6","","null","audio/norm_touch_duck.mp3","","null","","","",""
"video-keyboard-response-mod","9","47916","0.0-9.0","fm8l2t84k1mndc6","","null","","","null","","","sc-label-last","1-1"
"audio-keyboard-response","10","51782","0.0-10.0","fm8l2t84k1mndc6","","null","audio/norm_klefu.mp3","","null","","","",""
"html-button-response","11","53040","0.0-11.0","fm8l2t84k1mndc6","","1256","","1","","<img src=""img/10.png"" width=""40%"" />","<img src=""img/11.png"" width=""40%"" />","sc-label-last","1-1"
"audio-keyboard-response","12","56406","0.0-12.0","fm8l2t84k1mndc6","","null","audio/norm_klefu.mp3","","null","","","",""
"html-button-response","13","58112","0.0-13.0","fm8l2t84k1mndc6","","1705","","1","","<img src=""img/11.png"" width=""40%"" />","<img src=""img/10.png"" width=""40%"" />","sc-label-last","1-1"
"audio-keyboard-response","14","61478","0.0-14.0","fm8l2t84k1mndc6","","null","audio/norm_jimo.mp3","","null","","","",""
"html-button-response","15","63147","0.0-15.0","fm8l2t84k1mndc6","","1668.0000000000073","","0","","<img src=""img/11.png"" width=""40%"" />","<img src=""img/10.png"" width=""40%"" />","sc-label-last","1-1"
"audio-keyboard-response","16","66512","0.0-16.0","fm8l2t84k1mndc6","","null","audio/norm_jimo.mp3","","null","","","",""
"html-button-response","17","68193","0.0-17.0","fm8l2t84k1mndc6","","1680.0000000000146","","1","","<img src=""img/10.png"" width=""40%"" />","<img src=""img/11.png"" width=""40%"" />","sc-label-last","1-1"
"audio-keyboard-response","18","71697","0.0-18.0","fm8l2t84k1mndc6","","null","audio/goodjob.mp3","","null","","","",""
"audio-keyboard-response","19","74699","0.0-19.0","fm8l2t84k1mndc6","","null","audio/norm_touch_duck.mp3","","null","","","",""
"video-keyboard-response-mod","20","92254","0.0-20.0","fm8l2t84k1mndc6","","null","","","null","","","sc-label-last","1-1"
"audio-keyboard-response","21","96122","0.0-21.0","fm8l2t84k1mndc6","","null","audio/norm_tentle.mp3","","null","","","",""
"html-button-response","22","97146","0.0-22.0","fm8l2t84k1mndc6","","1022","","1","","<img src=""img/3.png"" width=""40%"" />","<img src=""img/7.png"" width=""40%"" />","sc-label-last","1-1"
"audio-keyboard-response","23","100511","0.0-23.0","fm8l2t84k1mndc6","","null","audio/norm_paegu.mp3","","null","","","",""
"html-button-response","24","101395","0.0-24.0","fm8l2t84k1mndc6","","882","","1","","<img src=""img/7.png"" width=""40%"" />","<img src=""img/3.png"" width=""40%"" />","sc-label-last","1-1"
"audio-keyboard-response","25","104764","0.0-25.0","fm8l2t84k1mndc6","","null","audio/norm_tentle.mp3","","null","","","",""
"html-button-response","26","106247","0.0-26.0","fm8l2t84k1mndc6","","1481","","0","","<img src=""img/3.png"" width=""40%"" />","<img src=""img/7.png"" width=""40%"" />","sc-label-last","1-1"
"audio-keyboard-response","27","109613","0.0-27.0","fm8l2t84k1mndc6","","null","audio/norm_paegu.mp3","","null","","","",""
"html-button-response","28","110742","0.0-28.0","fm8l2t84k1mndc6","","1128","","0","","<img src=""img/7.png"" width=""40%"" />","<img src=""img/3.png"" width=""40%"" />","sc-label-last","1-1"
"audio-keyboard-response","29","114246","0.0-29.0","fm8l2t84k1mndc6","","null","audio/goodjob.mp3","","null","","","",""
"audio-keyboard-response","30","117248","0.0-30.0","fm8l2t84k1mndc6","","null","audio/norm_touch_duck.mp3","","null","","","",""
"video-keyboard-response-mod","31","134399","0.0-31.0","fm8l2t84k1mndc6","","null","","","null","","","nsc-label-first","1-1"
"audio-keyboard-response","32","138268","0.0-32.0","fm8l2t84k1mndc6","","null","audio/norm_chamu.mp3","","null","","","",""
"html-button-response","33","139764","0.0-33.0","fm8l2t84k1mndc6","","1492.999999999971","","1","","<img src=""img/13.png"" width=""40%"" />","<img src=""img/14.png"" width=""40%"" />","nsc-label-first","1-1"
"audio-keyboard-response","34","143129","0.0-34.0","fm8l2t84k1mndc6","","null","audio/norm_dakup.mp3","","null","","","",""
"html-button-response","35","143926","0.0-35.0","fm8l2t84k1mndc6","","796","","0","","<img src=""img/13.png"" width=""40%"" />","<img src=""img/14.png"" width=""40%"" />","nsc-label-first","1-1"
"audio-keyboard-response","36","147292","0.0-36.0","fm8l2t84k1mndc6","","null","audio/norm_chamu.mp3","","null","","","",""
"html-button-response","37","148731","0.0-37.0","fm8l2t84k1mndc6","","1438","","0","","<img src=""img/14.png"" width=""40%"" />","<img src=""img/13.png"" width=""40%"" />","nsc-label-first","1-1"
"audio-keyboard-response","38","152097","0.0-38.0","fm8l2t84k1mndc6","","null","audio/norm_dakup.mp3","","null","","","",""
"html-button-response","39","153811","0.0-39.0","fm8l2t84k1mndc6","","1713","","0","","<img src=""img/13.png"" width=""40%"" />","<img src=""img/14.png"" width=""40%"" />","nsc-label-first","1-1"
"audio-keyboard-response","40","157316","0.0-40.0","fm8l2t84k1mndc6","","null","audio/goodjob.mp3","","null","","","",""
"audio-keyboard-response","41","160319","0.0-41.0","fm8l2t84k1mndc6","","null","audio/norm_touch_duck.mp3","","null","","","",""
"video-keyboard-response-mod","42","177876","0.0-42.0","fm8l2t84k1mndc6","","null","","","null","","","nsc-label-first","1-1"
"audio-keyboard-response","43","181743","0.0-43.0","fm8l2t84k1mndc6","","null","audio/norm_fopin.mp3","","null","","","",""
"html-button-response","44","183891","0.0-44.0","fm8l2t84k1mndc6","","2146","","1","","<img src=""img/2.png"" width=""40%"" />","<img src=""img/6.png"" width=""40%"" />","nsc-label-first","1-1"
"audio-keyboard-response","45","187256","0.0-45.0","fm8l2t84k1mndc6","","null","audio/norm_fopin.mp3","","null","","","",""
"html-button-response","46","188377","0.0-46.0","fm8l2t84k1mndc6","","1119","","1","","<img src=""img/6.png"" width=""40%"" />","<img src=""img/2.png"" width=""40%"" />","nsc-label-first","1-1"
"audio-keyboard-response","47","191742","0.0-47.0","fm8l2t84k1mndc6","","null","audio/norm_nissle.mp3","","null","","","",""
"html-button-response","48","192325","0.0-48.0","fm8l2t84k1mndc6","","582.0000000000291","","0","","<img src=""img/6.png"" width=""40%"" />","<img src=""img/2.png"" width=""40%"" />","nsc-label-first","1-1"
"audio-keyboard-response","49","195691","0.0-49.0","fm8l2t84k1mndc6","","null","audio/norm_nissle.mp3","","null","","","",""
"html-button-response","50","209595","0.0-50.0","fm8l2t84k1mndc6","","13902","","1","","<img src=""img/2.png"" width=""40%"" />","<img src=""img/6.png"" width=""40%"" />","nsc-label-first","1-1"
"audio-keyboard-response","51","213101","0.0-51.0","fm8l2t84k1mndc6","","null","audio/goodjob.mp3","","null","","","",""
"audio-keyboard-response","52","216104","0.0-52.0","fm8l2t84k1mndc6","","null","audio/norm_touch_duck.mp3","","null","","","",""
"video-keyboard-response-mod","53","232296","0.0-53.0","fm8l2t84k1mndc6","","null","","","null","","","sc-label-first","1-1"
"audio-keyboard-response","54","236162","0.0-54.0","fm8l2t84k1mndc6","","null","audio/norm_gazzer.mp3","","null","","","",""
"html-button-response","55","237227","0.0-55.0","fm8l2t84k1mndc6","","1063","","1","","<img src=""img/15.png"" width=""40%"" />","<img src=""img/9.png"" width=""40%"" />","sc-label-first","1-1"
"audio-keyboard-response","56","240596","0.0-56.0","fm8l2t84k1mndc6","","null","audio/norm_numo.mp3","","null","","","",""
"html-button-response","57","252018","0.0-57.0","fm8l2t84k1mndc6","","11420","","0","","<img src=""img/15.png"" width=""40%"" />","<img src=""img/9.png"" width=""40%"" />","sc-label-first","1-1"
"audio-keyboard-response","58","255383","0.0-58.0","fm8l2t84k1mndc6","","null","audio/norm_numo.mp3","","null","","","",""
"html-button-response","59","256552","0.0-59.0","fm8l2t84k1mndc6","","1167.000000000029","","0","","<img src=""img/15.png"" width=""40%"" />","<img src=""img/9.png"" width=""40%"" />","sc-label-first","1-1"
"audio-keyboard-response","60","259918","0.0-60.0","fm8l2t84k1mndc6","","null","audio/norm_gazzer.mp3","","null","","","",""
"html-button-response","61","260937","0.0-61.0","fm8l2t84k1mndc6","","1017","","1","","<img src=""img/15.png"" width=""40%"" />","<img src=""img/9.png"" width=""40%"" />","sc-label-first","1-1"
"audio-keyboard-response","62","264441","0.0-62.0","fm8l2t84k1mndc6","","null","audio/goodjob.mp3","","null","","","",""
"audio-keyboard-response","63","267448","0.0-63.0","fm8l2t84k1mndc6","","null","audio/norm_touch_duck.mp3","","null","","","",""
"video-keyboard-response-mod","64","284444","0.0-64.0","fm8l2t84k1mndc6","","null","","","null","","","sc-label-first","1-1"
"audio-keyboard-response","65","288312","0.0-65.0","fm8l2t84k1mndc6","","null","audio/norm_toma.mp3","","null","","","",""
"html-button-response","66","289711","0.0-66.0","fm8l2t84k1mndc6","","1398","","0","","<img src=""img/1.png"" width=""40%"" />","<img src=""img/5.png"" width=""40%"" />","sc-label-first","1-1"
"audio-keyboard-response","67","293078","0.0-67.0","fm8l2t84k1mndc6","","null","audio/norm_blicket.mp3","","null","","","",""
"html-button-response","68","293969","0.0-68.0","fm8l2t84k1mndc6","","888","","0","","<img src=""img/5.png"" width=""40%"" />","<img src=""img/1.png"" width=""40%"" />","sc-label-first","1-1"
"audio-keyboard-response","69","297334","0.0-69.0","fm8l2t84k1mndc6","","null","audio/norm_blicket.mp3","","null","","","",""
"html-button-response","70","299382","0.0-70.0","fm8l2t84k1mndc6","","2046.9999999999418","","1","","<img src=""img/5.png"" width=""40%"" />","<img src=""img/1.png"" width=""40%"" />","sc-label-first","1-1"
"audio-keyboard-response","71","302747","0.0-71.0","fm8l2t84k1mndc6","","null","audio/norm_toma.mp3","","null","","","",""
"html-button-response","72","304421","0.0-72.0","fm8l2t84k1mndc6","","1672","","1","","<img src=""img/1.png"" width=""40%"" />","<img src=""img/5.png"" width=""40%"" />","sc-label-first","1-1"
"audio-keyboard-response","73","307924","0.0-73.0","fm8l2t84k1mndc6","","null","audio/goodjob.mp3","","null","","","",""
"audio-keyboard-response","74","310928","0.0-74.0","fm8l2t84k1mndc6","","null","audio/norm_touch_duck.mp3","","null","","","",""
"video-keyboard-response-mod","75","333193","0.0-75.0","fm8l2t84k1mndc6","","null","","","null","","","nsc-label-last","1-1"
"audio-keyboard-response","76","337061","0.0-76.0","fm8l2t84k1mndc6","","null","audio/norm_miffle.mp3","","null","","","",""
"html-button-response","77","338137","0.0-77.0","fm8l2t84k1mndc6","","1074","","1","","<img src=""img/16.png"" width=""40%"" />","<img src=""img/12.png"" width=""40%"" />","nsc-label-last","1-1"
"audio-keyboard-response","78","341503","0.0-78.0","fm8l2t84k1mndc6","","null","audio/norm_miffle.mp3","","null","","","",""
"html-button-response","79","343741","0.0-79.0","fm8l2t84k1mndc6","","2236","","1","","<img src=""img/16.png"" width=""40%"" />","<img src=""img/12.png"" width=""40%"" />","nsc-label-last","1-1"
"audio-keyboard-response","80","347106","0.0-80.0","fm8l2t84k1mndc6","","null","audio/norm_zibo.mp3","","null","","","",""
"html-button-response","81","347820","0.0-81.0","fm8l2t84k1mndc6","","712","","1","","<img src=""img/12.png"" width=""40%"" />","<img src=""img/16.png"" width=""40%"" />","nsc-label-last","1-1"
"audio-keyboard-response","82","351186","0.0-82.0","fm8l2t84k1mndc6","","null","audio/norm_zibo.mp3","","null","","","",""
"html-button-response","83","352099","0.0-83.0","fm8l2t84k1mndc6","","911","","1","","<img src=""img/12.png"" width=""40%"" />","<img src=""img/16.png"" width=""40%"" />","nsc-label-last","1-1"
"audio-keyboard-response","84","355602","0.0-84.0","fm8l2t84k1mndc6","","null","audio/norm_touch_duck.mp3","","null","","","",""
"video-keyboard-response-mod","85","373522","0.0-85.0","fm8l2t84k1mndc6","","null","","","null","","","nsc-label-last","1-1"
"audio-keyboard-response","86","377391","0.0-86.0","fm8l2t84k1mndc6","","null","audio/norm_reko.mp3","","null","","","",""
"html-button-response","87","378563","0.0-87.0","fm8l2t84k1mndc6","","1171","","0","","<img src=""img/8.png"" width=""40%"" />","<img src=""img/4.png"" width=""40%"" />","nsc-label-last","1-1"
"audio-keyboard-response","88","381929","0.0-88.0","fm8l2t84k1mndc6","","null","audio/norm_vugim.mp3","","null","","","",""
"html-button-response","89","383265","0.0-89.0","fm8l2t84k1mndc6","","1335","","1","","<img src=""img/4.png"" width=""40%"" />","<img src=""img/8.png"" width=""40%"" />","nsc-label-last","1-1"
"audio-keyboard-response","90","386632","0.0-90.0","fm8l2t84k1mndc6","","null","audio/norm_vugim.mp3","","null","","","",""
"html-button-response","91","389906","0.0-91.0","fm8l2t84k1mndc6","","3271.999999999942","","0","","<img src=""img/8.png"" width=""40%"" />","<img src=""img/4.png"" width=""40%"" />","nsc-label-last","1-1"
"audio-keyboard-response","92","393273","0.0-92.0","fm8l2t84k1mndc6","","null","audio/norm_reko.mp3","","null","","","",""
"html-button-response","93","408384","0.0-93.0","fm8l2t84k1mndc6","","15109","","1","","<img src=""img/8.png"" width=""40%"" />","<img src=""img/4.png"" width=""40%"" />","nsc-label-last","1-1"
"audio-keyboard-response","94","411888","0.0-94.0","fm8l2t84k1mndc6","","null","audio/goodjob.mp3","","null","","","",""
"image-keyboard-response","95","414892","0.0-95.0","fm8l2t84k1mndc6","","null","img/welldone.jpg","","null","","","",""
