"trial_type","trial_index","time_elapsed","internal_node_id","subject","success","rt","stimulus","button_pressed","key_press","button0","button1","condition","order"
"pavlovia","0","12","0.0-0.0","lssj5lhuy9ljuhn","","","","","","","","",""
"fullscreen","1","4071","0.0-1.0","lssj5lhuy9ljuhn","true","","","","","","","",""
"html-button-response","2","10413","0.0-2.0","lssj5lhuy9ljuhn","","6341","Let's start!","0","","","","",""
"audio-keyboard-response","3","12341","0.0-3.0","lssj5lhuy9ljuhn","","null","audio/apple.mp3","","null","","","",""
"html-button-response","4","13283","0.0-4.0","lssj5lhuy9ljuhn","","937","","0","","<img src=""img/puppy.png"" width=""40%"" />","<img src=""img/apple.png"" width=""40%"" />","",""
"audio-keyboard-response","5","14923","0.0-5.0","lssj5lhuy9ljuhn","","null","audio/puppy.mp3","","null","","","",""
"html-button-response","6","15945","0.0-6.0","lssj5lhuy9ljuhn","","1019","","0","","<img src=""img/puppy.png"" width=""40%"" />","<img src=""img/apple.png"" width=""40%"" />","",""
"audio-keyboard-response","7","17950","0.0-7.0","lssj5lhuy9ljuhn","","null","audio/goodjob.mp3","","null","","","",""
"audio-keyboard-response","8","20954","0.0-8.0","lssj5lhuy9ljuhn","","null","audio/norm_touch_duck.wav","","null","","","",""
"video-keyboard-response-mod","9","38539","0.0-9.0","lssj5lhuy9ljuhn","","null","","","null","","","sc-label-first","1-1"
"audio-keyboard-response","10","42405","0.0-10.0","lssj5lhuy9ljuhn","","null","audio/norm_toma.wav","","null","","","",""
"html-button-response","11","46243","0.0-11.0","lssj5lhuy9ljuhn","","3829","","1","","<img src=""img/1.png"" width=""40%"" />","<img src=""img/5.png"" width=""40%"" />","sc-label-first","1-1"
"audio-keyboard-response","12","49610","0.0-12.0","lssj5lhuy9ljuhn","","null","audio/norm_blicket.wav","","null","","","",""
"html-button-response","13","50738","0.0-13.0","lssj5lhuy9ljuhn","","1126","","1","","<img src=""img/5.png"" width=""40%"" />","<img src=""img/1.png"" width=""40%"" />","sc-label-first","1-1"
"audio-keyboard-response","14","54103","0.0-14.0","lssj5lhuy9ljuhn","","null","audio/norm_toma.wav","","null","","","",""
"html-button-response","15","55621","0.0-15.0","lssj5lhuy9ljuhn","","1515","","0","","<img src=""img/5.png"" width=""40%"" />","<img src=""img/1.png"" width=""40%"" />","sc-label-first","1-1"
"audio-keyboard-response","16","58989","0.0-16.0","lssj5lhuy9ljuhn","","null","audio/norm_blicket.wav","","null","","","",""
"html-button-response","17","60124","0.0-17.0","lssj5lhuy9ljuhn","","1133","","1","","<img src=""img/5.png"" width=""40%"" />","<img src=""img/1.png"" width=""40%"" />","sc-label-first","1-1"
"audio-keyboard-response","18","63629","0.0-18.0","lssj5lhuy9ljuhn","","null","audio/goodjob.wav","","null","","","",""
"audio-keyboard-response","19","66632","0.0-19.0","lssj5lhuy9ljuhn","","null","audio/norm_touch_duck.wav","","null","","","",""
"video-keyboard-response-mod","20","83896","0.0-20.0","lssj5lhuy9ljuhn","","null","","","null","","","sc-label-first","1-1"
"audio-keyboard-response","21","87766","0.0-21.0","lssj5lhuy9ljuhn","","null","audio/norm_numo.wav","","null","","","",""
"html-button-response","22","88879","0.0-22.0","lssj5lhuy9ljuhn","","1107","","0","","<img src=""img/9.png"" width=""40%"" />","<img src=""img/15.png"" width=""40%"" />","sc-label-first","1-1"
"audio-keyboard-response","23","92244","0.0-23.0","lssj5lhuy9ljuhn","","null","audio/norm_gazzer.wav","","null","","","",""
"html-button-response","24","93027","0.0-24.0","lssj5lhuy9ljuhn","","781","","0","","<img src=""img/15.png"" width=""40%"" />","<img src=""img/9.png"" width=""40%"" />","sc-label-first","1-1"
"audio-keyboard-response","25","96394","0.0-25.0","lssj5lhuy9ljuhn","","null","audio/norm_numo.wav","","null","","","",""
"html-button-response","26","97435","0.0-26.0","lssj5lhuy9ljuhn","","1038","","1","","<img src=""img/15.png"" width=""40%"" />","<img src=""img/9.png"" width=""40%"" />","sc-label-first","1-1"
"audio-keyboard-response","27","100801","0.0-27.0","lssj5lhuy9ljuhn","","null","audio/norm_gazzer.wav","","null","","","",""
"html-button-response","28","101591","0.0-28.0","lssj5lhuy9ljuhn","","788","","1","","<img src=""img/9.png"" width=""40%"" />","<img src=""img/15.png"" width=""40%"" />","sc-label-first","1-1"
"audio-keyboard-response","29","105095","0.0-29.0","lssj5lhuy9ljuhn","","null","audio/goodjob.wav","","null","","","",""
"audio-keyboard-response","30","108099","0.0-30.0","lssj5lhuy9ljuhn","","null","audio/norm_touch_duck.wav","","null","","","",""
"video-keyboard-response-mod","31","126235","0.0-31.0","lssj5lhuy9ljuhn","","null","","","null","","","sc-label-last","1-1"
"audio-keyboard-response","32","130110","0.0-32.0","lssj5lhuy9ljuhn","","null","audio/norm_jimo.wav","","null","","","",""
"html-button-response","33","131237","0.0-33.0","lssj5lhuy9ljuhn","","1123","","1","","<img src=""img/11.png"" width=""40%"" />","<img src=""img/10.png"" width=""40%"" />","sc-label-last","1-1"
"audio-keyboard-response","34","134602","0.0-34.0","lssj5lhuy9ljuhn","","null","audio/norm_jimo.wav","","null","","","",""
"html-button-response","35","135201","0.0-35.0","lssj5lhuy9ljuhn","","597","","0","","<img src=""img/11.png"" width=""40%"" />","<img src=""img/10.png"" width=""40%"" />","sc-label-last","1-1"
"audio-keyboard-response","36","138568","0.0-36.0","lssj5lhuy9ljuhn","","null","audio/norm_klefu.wav","","null","","","",""
"html-button-response","37","139525","0.0-37.0","lssj5lhuy9ljuhn","","955","","1","","<img src=""img/11.png"" width=""40%"" />","<img src=""img/10.png"" width=""40%"" />","sc-label-last","1-1"
"audio-keyboard-response","38","142890","0.0-38.0","lssj5lhuy9ljuhn","","null","audio/norm_klefu.wav","","null","","","",""
"html-button-response","39","143586","0.0-39.0","lssj5lhuy9ljuhn","","693","","1","","<img src=""img/10.png"" width=""40%"" />","<img src=""img/11.png"" width=""40%"" />","sc-label-last","1-1"
"audio-keyboard-response","40","147090","0.0-40.0","lssj5lhuy9ljuhn","","null","audio/goodjob.wav","","null","","","",""
"audio-keyboard-response","41","150094","0.0-41.0","lssj5lhuy9ljuhn","","null","audio/norm_touch_duck.wav","","null","","","",""
"video-keyboard-response-mod","42","167976","0.0-42.0","lssj5lhuy9ljuhn","","null","","","null","","","sc-label-last","1-1"
"audio-keyboard-response","43","171850","0.0-43.0","lssj5lhuy9ljuhn","","null","audio/norm_tentle.wav","","null","","","",""
"html-button-response","44","172930","0.0-44.0","lssj5lhuy9ljuhn","","1071.999999999971","","1","","<img src=""img/7.png"" width=""40%"" />","<img src=""img/3.png"" width=""40%"" />","sc-label-last","1-1"
"audio-keyboard-response","45","176296","0.0-45.0","lssj5lhuy9ljuhn","","null","audio/norm_paegu.wav","","null","","","",""
"html-button-response","46","177372","0.0-46.0","lssj5lhuy9ljuhn","","1074","","0","","<img src=""img/7.png"" width=""40%"" />","<img src=""img/3.png"" width=""40%"" />","sc-label-last","1-1"
"audio-keyboard-response","47","180738","0.0-47.0","lssj5lhuy9ljuhn","","null","audio/norm_paegu.wav","","null","","","",""
"html-button-response","48","182458","0.0-48.0","lssj5lhuy9ljuhn","","1718.000000000029","","1","","<img src=""img/3.png"" width=""40%"" />","<img src=""img/7.png"" width=""40%"" />","sc-label-last","1-1"
"audio-keyboard-response","49","185822","0.0-49.0","lssj5lhuy9ljuhn","","null","audio/norm_tentle.wav","","null","","","",""
"html-button-response","50","186514","0.0-50.0","lssj5lhuy9ljuhn","","690","","1","","<img src=""img/7.png"" width=""40%"" />","<img src=""img/3.png"" width=""40%"" />","sc-label-last","1-1"
"audio-keyboard-response","51","190022","0.0-51.0","lssj5lhuy9ljuhn","","null","audio/goodjob.wav","","null","","","",""
"audio-keyboard-response","52","193030","0.0-52.0","lssj5lhuy9ljuhn","","null","audio/norm_touch_duck.wav","","null","","","",""
"video-keyboard-response-mod","53","210367","0.0-53.0","lssj5lhuy9ljuhn","","null","","","null","","","nsc-label-last","1-1"
"audio-keyboard-response","54","214236","0.0-54.0","lssj5lhuy9ljuhn","","null","audio/norm_reko.wav","","null","","","",""
"html-button-response","55","219799","0.0-55.0","lssj5lhuy9ljuhn","","5559","","1","","<img src=""img/4.png"" width=""40%"" />","<img src=""img/8.png"" width=""40%"" />","nsc-label-last","1-1"
"audio-keyboard-response","56","223165","0.0-56.0","lssj5lhuy9ljuhn","","null","audio/norm_vugim.wav","","null","","","",""
"html-button-response","57","224189","0.0-57.0","lssj5lhuy9ljuhn","","1020","","1","","<img src=""img/8.png"" width=""40%"" />","<img src=""img/4.png"" width=""40%"" />","nsc-label-last","1-1"
"audio-keyboard-response","58","227554","0.0-58.0","lssj5lhuy9ljuhn","","null","audio/norm_vugim.wav","","null","","","",""
"html-button-response","59","228462","0.0-59.0","lssj5lhuy9ljuhn","","906","","1","","<img src=""img/8.png"" width=""40%"" />","<img src=""img/4.png"" width=""40%"" />","nsc-label-last","1-1"
"audio-keyboard-response","60","231824","0.0-60.0","lssj5lhuy9ljuhn","","null","audio/norm_reko.wav","","null","","","",""
"html-button-response","61","232571","0.0-61.0","lssj5lhuy9ljuhn","","744","","1","","<img src=""img/4.png"" width=""40%"" />","<img src=""img/8.png"" width=""40%"" />","nsc-label-last","1-1"
"audio-keyboard-response","62","236075","0.0-62.0","lssj5lhuy9ljuhn","","null","audio/goodjob.wav","","null","","","",""
"audio-keyboard-response","63","239078","0.0-63.0","lssj5lhuy9ljuhn","","null","audio/norm_touch_duck.wav","","null","","","",""
"video-keyboard-response-mod","64","256180","0.0-64.0","lssj5lhuy9ljuhn","","null","","","null","","","nsc-label-last","1-1"
"audio-keyboard-response","65","260046","0.0-65.0","lssj5lhuy9ljuhn","","null","audio/norm_zibo.wav","","null","","","",""
"html-button-response","66","261167","0.0-66.0","lssj5lhuy9ljuhn","","1118.9999999999418","","1","","<img src=""img/12.png"" width=""40%"" />","<img src=""img/16.png"" width=""40%"" />","nsc-label-last","1-1"
"audio-keyboard-response","67","264538","0.0-67.0","lssj5lhuy9ljuhn","","null","audio/norm_miffle.wav","","null","","","",""
"html-button-response","68","265526","0.0-68.0","lssj5lhuy9ljuhn","","982","","0","","<img src=""img/12.png"" width=""40%"" />","<img src=""img/16.png"" width=""40%"" />","nsc-label-last","1-1"
"audio-keyboard-response","69","268894","0.0-69.0","lssj5lhuy9ljuhn","","null","audio/norm_miffle.wav","","null","","","",""
"html-button-response","70","269743","0.0-70.0","lssj5lhuy9ljuhn","","847","","1","","<img src=""img/16.png"" width=""40%"" />","<img src=""img/12.png"" width=""40%"" />","nsc-label-last","1-1"
"audio-keyboard-response","71","273108","0.0-71.0","lssj5lhuy9ljuhn","","null","audio/norm_zibo.wav","","null","","","",""
"html-button-response","72","273891","0.0-72.0","lssj5lhuy9ljuhn","","781","","1","","<img src=""img/12.png"" width=""40%"" />","<img src=""img/16.png"" width=""40%"" />","nsc-label-last","1-1"
"audio-keyboard-response","73","277396","0.0-73.0","lssj5lhuy9ljuhn","","null","audio/goodjob.wav","","null","","","",""
"audio-keyboard-response","74","280405","0.0-74.0","lssj5lhuy9ljuhn","","null","audio/norm_touch_duck.wav","","null","","","",""
"video-keyboard-response-mod","75","297528","0.0-75.0","lssj5lhuy9ljuhn","","null","","","null","","","nsc-label-first","1-1"
"audio-keyboard-response","76","301400","0.0-76.0","lssj5lhuy9ljuhn","","null","audio/norm_dakup.wav","","null","","","",""
"html-button-response","77","302225","0.0-77.0","lssj5lhuy9ljuhn","","823","","1","","<img src=""img/13.png"" width=""40%"" />","<img src=""img/14.png"" width=""40%"" />","nsc-label-first","1-1"
"audio-keyboard-response","78","305590","0.0-78.0","lssj5lhuy9ljuhn","","null","audio/norm_dakup.wav","","null","","","",""
"html-button-response","79","306945","0.0-79.0","lssj5lhuy9ljuhn","","1352","","1","","<img src=""img/13.png"" width=""40%"" />","<img src=""img/14.png"" width=""40%"" />","nsc-label-first","1-1"
"audio-keyboard-response","80","310310","0.0-80.0","lssj5lhuy9ljuhn","","null","audio/norm_chamu.wav","","null","","","",""
"html-button-response","81","311069","0.0-81.0","lssj5lhuy9ljuhn","","757","","0","","<img src=""img/13.png"" width=""40%"" />","<img src=""img/14.png"" width=""40%"" />","nsc-label-first","1-1"
"audio-keyboard-response","82","314432","0.0-82.0","lssj5lhuy9ljuhn","","null","audio/norm_chamu.wav","","null","","","",""
"html-button-response","83","315050","0.0-83.0","lssj5lhuy9ljuhn","","615","","0","","<img src=""img/13.png"" width=""40%"" />","<img src=""img/14.png"" width=""40%"" />","nsc-label-first","1-1"
"audio-keyboard-response","84","318557","0.0-84.0","lssj5lhuy9ljuhn","","null","audio/goodjob.wav","","null","","","",""
"audio-keyboard-response","85","321561","0.0-85.0","lssj5lhuy9ljuhn","","null","audio/norm_touch_duck.wav","","null","","","",""
"video-keyboard-response-mod","86","341024","0.0-86.0","lssj5lhuy9ljuhn","","null","","","null","","","nsc-label-first","1-1"
"audio-keyboard-response","87","344892","0.0-87.0","lssj5lhuy9ljuhn","","null","audio/norm_nissle.wav","","null","","","",""
"html-button-response","88","345947","0.0-88.0","lssj5lhuy9ljuhn","","1052","","1","","<img src=""img/2.png"" width=""40%"" />","<img src=""img/6.png"" width=""40%"" />","nsc-label-first","1-1"
"audio-keyboard-response","89","349317","0.0-89.0","lssj5lhuy9ljuhn","","null","audio/norm_fopin.wav","","null","","","",""
"html-button-response","90","349874","0.0-90.0","lssj5lhuy9ljuhn","","549","","1","","<img src=""img/6.png"" width=""40%"" />","<img src=""img/2.png"" width=""40%"" />","nsc-label-first","1-1"
"audio-keyboard-response","91","353239","0.0-91.0","lssj5lhuy9ljuhn","","null","audio/norm_nissle.wav","","null","","","",""
"html-button-response","92","354029","0.0-92.0","lssj5lhuy9ljuhn","","787.0000000000582","","0","","<img src=""img/2.png"" width=""40%"" />","<img src=""img/6.png"" width=""40%"" />","nsc-label-first","1-1"
"audio-keyboard-response","93","357390","0.0-93.0","lssj5lhuy9ljuhn","","null","audio/norm_fopin.wav","","null","","","",""
"html-button-response","94","358142","0.0-94.0","lssj5lhuy9ljuhn","","751.9999999999418","","0","","<img src=""img/6.png"" width=""40%"" />","<img src=""img/2.png"" width=""40%"" />","nsc-label-first","1-1"
"audio-keyboard-response","95","361642","0.0-95.0","lssj5lhuy9ljuhn","","null","audio/goodjob.wav","","null","","","",""
"image-keyboard-response","96","364644","0.0-96.0","lssj5lhuy9ljuhn","","null","img/welldone.jpg","","null","","","",""
