"trial_type","trial_index","time_elapsed","internal_node_id","subject","success","rt","stimulus","button_pressed","key_press","button0","button1","condition","order"
"pavlovia","0","2","0.0-0.0","2u5br1ussa5unsv","","","","","","","","",""
"fullscreen","1","14448","0.0-1.0","2u5br1ussa5unsv","true","","","","","","","",""
"html-button-response","2","15371","0.0-2.0","2u5br1ussa5unsv","","922","Let's start!","0","","","","",""
"audio-keyboard-response","3","17054","0.0-3.0","2u5br1ussa5unsv","","null","audio/apple.mp3","","null","","","",""
"html-button-response","4","17418","0.0-4.0","2u5br1ussa5unsv","","363","","1","","<img src=""img/puppy.png"" width=""40%"" />","<img src=""img/apple.png"" width=""40%"" />","",""
"audio-keyboard-response","5","19020","0.0-5.0","2u5br1ussa5unsv","","null","audio/puppy.mp3","","null","","","",""
"html-button-response","6","19366","0.0-6.0","2u5br1ussa5unsv","","346","","0","","<img src=""img/puppy.png"" width=""40%"" />","<img src=""img/apple.png"" width=""40%"" />","",""
"audio-keyboard-response","7","21367","0.0-7.0","2u5br1ussa5unsv","","null","audio/goodjob.mp3","","null","","","",""
"audio-keyboard-response","8","24370","0.0-8.0","2u5br1ussa5unsv","","null","audio/norm_touch_duck.mp3","","null","","","",""
"video-keyboard-response-mod","9","41848","0.0-9.0","2u5br1ussa5unsv","","null","","","null","","","sc-label-last","1-1"
"audio-keyboard-response","10","45718","0.0-10.0","2u5br1ussa5unsv","","null","audio/norm_jimo.mp3","","null","","","",""
"html-button-response","11","46020","0.0-11.0","2u5br1ussa5unsv","","301","","0","","<img src=""img/10.png"" width=""40%"" />","<img src=""img/11.png"" width=""40%"" />","sc-label-last","1-1"
"audio-keyboard-response","12","49387","0.0-12.0","2u5br1ussa5unsv","","null","audio/norm_klefu.mp3","","null","","","",""
"html-button-response","13","49585","0.0-13.0","2u5br1ussa5unsv","","198","","0","","<img src=""img/11.png"" width=""40%"" />","<img src=""img/10.png"" width=""40%"" />","sc-label-last","1-1"
"audio-keyboard-response","14","52952","0.0-14.0","2u5br1ussa5unsv","","null","audio/norm_klefu.mp3","","null","","","",""
"html-button-response","15","53309","0.0-15.0","2u5br1ussa5unsv","","357","","1","","<img src=""img/10.png"" width=""40%"" />","<img src=""img/11.png"" width=""40%"" />","sc-label-last","1-1"
"audio-keyboard-response","16","56675","0.0-16.0","2u5br1ussa5unsv","","null","audio/norm_jimo.mp3","","null","","","",""
"html-button-response","17","57302","0.0-17.0","2u5br1ussa5unsv","","628","","1","","<img src=""img/11.png"" width=""40%"" />","<img src=""img/10.png"" width=""40%"" />","sc-label-last","1-1"
"audio-keyboard-response","18","60805","0.0-18.0","2u5br1ussa5unsv","","null","audio/goodjob.mp3","","null","","","",""
"audio-keyboard-response","19","63807","0.0-19.0","2u5br1ussa5unsv","","null","audio/norm_touch_duck.mp3","","null","","","",""
"video-keyboard-response-mod","20","81662","0.0-20.0","2u5br1ussa5unsv","","null","","","null","","","sc-label-last","1-1"
"audio-keyboard-response","21","85532","0.0-21.0","2u5br1ussa5unsv","","null","audio/norm_paegu.mp3","","null","","","",""
"html-button-response","22","87148","0.0-22.0","2u5br1ussa5unsv","","1615","","0","","<img src=""img/7.png"" width=""40%"" />","<img src=""img/3.png"" width=""40%"" />","sc-label-last","1-1"
"audio-keyboard-response","23","90517","0.0-23.0","2u5br1ussa5unsv","","null","audio/norm_tentle.mp3","","null","","","",""
"html-button-response","24","90704","0.0-24.0","2u5br1ussa5unsv","","187","","0","","<img src=""img/3.png"" width=""40%"" />","<img src=""img/7.png"" width=""40%"" />","sc-label-last","1-1"
"audio-keyboard-response","25","94074","0.0-25.0","2u5br1ussa5unsv","","null","audio/norm_tentle.mp3","","null","","","",""
"html-button-response","26","94225","0.0-26.0","2u5br1ussa5unsv","","150","","1","","<img src=""img/7.png"" width=""40%"" />","<img src=""img/3.png"" width=""40%"" />","sc-label-last","1-1"
"audio-keyboard-response","27","97591","0.0-27.0","2u5br1ussa5unsv","","null","audio/norm_paegu.mp3","","null","","","",""
"html-button-response","28","98174","0.0-28.0","2u5br1ussa5unsv","","581","","0","","<img src=""img/7.png"" width=""40%"" />","<img src=""img/3.png"" width=""40%"" />","sc-label-last","1-1"
"audio-keyboard-response","29","101676","0.0-29.0","2u5br1ussa5unsv","","null","audio/goodjob.mp3","","null","","","",""
"audio-keyboard-response","30","104681","0.0-30.0","2u5br1ussa5unsv","","null","audio/norm_touch_duck.mp3","","null","","","",""
"video-keyboard-response-mod","31","122006","0.0-31.0","2u5br1ussa5unsv","","null","","","null","","","nsc-label-first","1-1"
"audio-keyboard-response","32","125874","0.0-32.0","2u5br1ussa5unsv","","null","audio/norm_chamu.mp3","","null","","","",""
"html-button-response","33","126806","0.0-33.0","2u5br1ussa5unsv","","931","","0","","<img src=""img/13.png"" width=""40%"" />","<img src=""img/14.png"" width=""40%"" />","nsc-label-first","1-1"
"audio-keyboard-response","34","130175","0.0-34.0","2u5br1ussa5unsv","","null","audio/norm_dakup.mp3","","null","","","",""
"html-button-response","35","130586","0.0-35.0","2u5br1ussa5unsv","","409","","1","","<img src=""img/13.png"" width=""40%"" />","<img src=""img/14.png"" width=""40%"" />","nsc-label-first","1-1"
"audio-keyboard-response","36","133952","0.0-36.0","2u5br1ussa5unsv","","null","audio/norm_dakup.mp3","","null","","","",""
"html-button-response","37","136718","0.0-37.0","2u5br1ussa5unsv","","2766","","1","","<img src=""img/13.png"" width=""40%"" />","<img src=""img/14.png"" width=""40%"" />","nsc-label-first","1-1"
"audio-keyboard-response","38","140086","0.0-38.0","2u5br1ussa5unsv","","null","audio/norm_chamu.mp3","","null","","","",""
"html-button-response","39","140812","0.0-39.0","2u5br1ussa5unsv","","727","","0","","<img src=""img/13.png"" width=""40%"" />","<img src=""img/14.png"" width=""40%"" />","nsc-label-first","1-1"
"audio-keyboard-response","40","144319","0.0-40.0","2u5br1ussa5unsv","","null","audio/goodjob.mp3","","null","","","",""
"audio-keyboard-response","41","147323","0.0-41.0","2u5br1ussa5unsv","","null","audio/norm_touch_duck.mp3","","null","","","",""
"video-keyboard-response-mod","42","164441","0.0-42.0","2u5br1ussa5unsv","","null","","","null","","","nsc-label-first","1-1"
"audio-keyboard-response","43","168310","0.0-43.0","2u5br1ussa5unsv","","null","audio/norm_fopin.mp3","","null","","","",""
"html-button-response","44","171256","0.0-44.0","2u5br1ussa5unsv","","2947","","0","","<img src=""img/6.png"" width=""40%"" />","<img src=""img/2.png"" width=""40%"" />","nsc-label-first","1-1"
"audio-keyboard-response","45","174627","0.0-45.0","2u5br1ussa5unsv","","null","audio/norm_fopin.mp3","","null","","","",""
"html-button-response","46","174878","0.0-46.0","2u5br1ussa5unsv","","250","","1","","<img src=""img/2.png"" width=""40%"" />","<img src=""img/6.png"" width=""40%"" />","nsc-label-first","1-1"
"audio-keyboard-response","47","178245","0.0-47.0","2u5br1ussa5unsv","","null","audio/norm_nissle.mp3","","null","","","",""
"html-button-response","48","178839","0.0-48.0","2u5br1ussa5unsv","","593","","1","","<img src=""img/6.png"" width=""40%"" />","<img src=""img/2.png"" width=""40%"" />","nsc-label-first","1-1"
"audio-keyboard-response","49","182206","0.0-49.0","2u5br1ussa5unsv","","null","audio/norm_nissle.mp3","","null","","","",""
"html-button-response","50","182742","0.0-50.0","2u5br1ussa5unsv","","536","","0","","<img src=""img/2.png"" width=""40%"" />","<img src=""img/6.png"" width=""40%"" />","nsc-label-first","1-1"
"audio-keyboard-response","51","186249","0.0-51.0","2u5br1ussa5unsv","","null","audio/goodjob.mp3","","null","","","",""
"audio-keyboard-response","52","189251","0.0-52.0","2u5br1ussa5unsv","","null","audio/norm_touch_duck.mp3","","null","","","",""
"video-keyboard-response-mod","53","202262","0.0-53.0","2u5br1ussa5unsv","","13009","","","224","","","sc-label-first","1-1"
