"trial_type","trial_index","time_elapsed","internal_node_id","subject","success","rt","stimulus","button_pressed","key_press","condition","order","button0","button1"
"pavlovia","0","3","0.0-0.0","sh9zoc78vo60ggy","","","","","","","","",""
"fullscreen","1","4682","0.0-1.0","sh9zoc78vo60ggy","true","","","","","","","",""
"html-button-response","2","6818","0.0-2.0","sh9zoc78vo60ggy","","2111.000000000001","Let's start!","0","","","","",""
"audio-keyboard-response","3","8628","0.0-3.0","sh9zoc78vo60ggy","","null","audio/apple.mp3","","null","","","",""
"html-button-response","4","10265","0.0-4.0","sh9zoc78vo60ggy","","1633","","1","","","","",""
"audio-keyboard-response","5","11901","0.0-5.0","sh9zoc78vo60ggy","","null","audio/puppy.mp3","","null","","","",""
"html-button-response","6","12822","0.0-6.0","sh9zoc78vo60ggy","","919","","1","","","","",""
"audio-keyboard-response","7","14826","0.0-7.0","sh9zoc78vo60ggy","","null","audio/goodjob.wav","","null","","","",""
"audio-keyboard-response","8","17831","0.0-8.0","sh9zoc78vo60ggy","","null","audio/norm_touch_duck.mp3","","null","","","",""
"video-keyboard-response-mod","9","36005","0.0-9.0","sh9zoc78vo60ggy","","null","","","null","sc-label-first","1-1","",""
"audio-keyboard-response","10","39868","0.0-10.0","sh9zoc78vo60ggy","","null","audio/norm_blicket.mp3","","null","","","",""
"html-button-response","11","58181","0.0-11.0","sh9zoc78vo60ggy","","18310","","1","","sc-label-first","1-1","<img src=""img/1.png"" width=""40%"" />","<img src=""img/5.png"" width=""40%"" />"
"audio-keyboard-response","12","61547","0.0-12.0","sh9zoc78vo60ggy","","null","audio/norm_toma.mp3","","null","","","",""
"html-button-response","13","63428","0.0-13.0","sh9zoc78vo60ggy","","1878","","1","","sc-label-first","1-1","<img src=""img/5.png"" width=""40%"" />","<img src=""img/1.png"" width=""40%"" />"
"audio-keyboard-response","14","66796","0.0-14.0","sh9zoc78vo60ggy","","null","audio/norm_blicket.mp3","","null","","","",""
"html-button-response","15","77205","0.0-15.0","sh9zoc78vo60ggy","","10406","","0","","sc-label-first","1-1","<img src=""img/5.png"" width=""40%"" />","<img src=""img/1.png"" width=""40%"" />"
"audio-keyboard-response","16","80568","0.0-16.0","sh9zoc78vo60ggy","","null","audio/norm_toma.mp3","","null","","","",""
"html-button-response","17","81840","0.0-17.0","sh9zoc78vo60ggy","","1270","","1","","sc-label-first","1-1","<img src=""img/1.png"" width=""40%"" />","<img src=""img/5.png"" width=""40%"" />"
"audio-keyboard-response","18","85344","0.0-18.0","sh9zoc78vo60ggy","","null","audio/goodjob.wav","","null","","","",""
"audio-keyboard-response","19","88346","0.0-19.0","sh9zoc78vo60ggy","","null","audio/norm_touch_duck.mp3","","null","","","",""
"video-keyboard-response-mod","20","105207","0.0-20.0","sh9zoc78vo60ggy","","null","","","null","sc-label-first","1-1","",""
"audio-keyboard-response","21","109073","0.0-21.0","sh9zoc78vo60ggy","","null","audio/norm_gazzer.mp3","","null","","","",""
"html-button-response","22","110659","0.0-22.0","sh9zoc78vo60ggy","","1584","","1","","sc-label-first","1-1","<img src=""img/15.png"" width=""40%"" />","<img src=""img/9.png"" width=""40%"" />"
"audio-keyboard-response","23","114026","0.0-23.0","sh9zoc78vo60ggy","","null","audio/norm_gazzer.mp3","","null","","","",""
"html-button-response","24","115789","0.0-24.0","sh9zoc78vo60ggy","","1760","","1","","sc-label-first","1-1","<img src=""img/15.png"" width=""40%"" />","<img src=""img/9.png"" width=""40%"" />"
"audio-keyboard-response","25","119154","0.0-25.0","sh9zoc78vo60ggy","","null","audio/norm_numo.mp3","","null","","","",""
"html-button-response","26","120476","0.0-26.0","sh9zoc78vo60ggy","","1321","","0","","sc-label-first","1-1","<img src=""img/15.png"" width=""40%"" />","<img src=""img/9.png"" width=""40%"" />"
"audio-keyboard-response","27","123845","0.0-27.0","sh9zoc78vo60ggy","","null","audio/norm_numo.mp3","","null","","","",""
"html-button-response","28","125121","0.0-28.0","sh9zoc78vo60ggy","","1272.9999999999854","","0","","sc-label-first","1-1","<img src=""img/15.png"" width=""40%"" />","<img src=""img/9.png"" width=""40%"" />"
"audio-keyboard-response","29","128626","0.0-29.0","sh9zoc78vo60ggy","","null","audio/goodjob.wav","","null","","","",""
"audio-keyboard-response","30","131629","0.0-30.0","sh9zoc78vo60ggy","","null","audio/norm_touch_duck.mp3","","null","","","",""
"video-keyboard-response-mod","31","149575","0.0-31.0","sh9zoc78vo60ggy","","null","","","null","nsc-label-first","1-1","",""
"audio-keyboard-response","32","153440","0.0-32.0","sh9zoc78vo60ggy","","null","audio/norm_chamu.mp3","","null","","","",""
"html-button-response","33","155208","0.0-33.0","sh9zoc78vo60ggy","","1767","","0","","nsc-label-first","1-1","<img src=""img/14.png"" width=""40%"" />","<img src=""img/13.png"" width=""40%"" />"
"audio-keyboard-response","34","158574","0.0-34.0","sh9zoc78vo60ggy","","null","audio/norm_chamu.mp3","","null","","","",""
"html-button-response","35","160617","0.0-35.0","sh9zoc78vo60ggy","","2037","","1","","nsc-label-first","1-1","<img src=""img/13.png"" width=""40%"" />","<img src=""img/14.png"" width=""40%"" />"
"audio-keyboard-response","36","163985","0.0-36.0","sh9zoc78vo60ggy","","null","audio/norm_dakup.mp3","","null","","","",""
"html-button-response","37","165893","0.0-37.0","sh9zoc78vo60ggy","","1906.000000000029","","1","","nsc-label-first","1-1","<img src=""img/14.png"" width=""40%"" />","<img src=""img/13.png"" width=""40%"" />"
"audio-keyboard-response","38","169262","0.0-38.0","sh9zoc78vo60ggy","","null","audio/norm_dakup.mp3","","null","","","",""
"html-button-response","39","170059","0.0-39.0","sh9zoc78vo60ggy","","795.0000000000291","","0","","nsc-label-first","1-1","<img src=""img/13.png"" width=""40%"" />","<img src=""img/14.png"" width=""40%"" />"
"audio-keyboard-response","40","173562","0.0-40.0","sh9zoc78vo60ggy","","null","audio/goodjob.wav","","null","","","",""
"audio-keyboard-response","41","176565","0.0-41.0","sh9zoc78vo60ggy","","null","audio/norm_touch_duck.mp3","","null","","","",""
"video-keyboard-response-mod","42","194460","0.0-42.0","sh9zoc78vo60ggy","","null","","","null","nsc-label-first","1-1","",""
"audio-keyboard-response","43","198326","0.0-43.0","sh9zoc78vo60ggy","","null","audio/norm_nissle.mp3","","null","","","",""
"html-button-response","44","199893","0.0-44.0","sh9zoc78vo60ggy","","1563","","0","","nsc-label-first","1-1","<img src=""img/2.png"" width=""40%"" />","<img src=""img/6.png"" width=""40%"" />"
"audio-keyboard-response","45","203261","0.0-45.0","sh9zoc78vo60ggy","","null","audio/norm_fopin.mp3","","null","","","",""
"html-button-response","46","204841","0.0-46.0","sh9zoc78vo60ggy","","1577","","0","","nsc-label-first","1-1","<img src=""img/6.png"" width=""40%"" />","<img src=""img/2.png"" width=""40%"" />"
"audio-keyboard-response","47","208205","0.0-47.0","sh9zoc78vo60ggy","","null","audio/norm_fopin.mp3","","null","","","",""
"html-button-response","48","209265","0.0-48.0","sh9zoc78vo60ggy","","1056.999999999971","","0","","nsc-label-first","1-1","<img src=""img/6.png"" width=""40%"" />","<img src=""img/2.png"" width=""40%"" />"
"audio-keyboard-response","49","212632","0.0-49.0","sh9zoc78vo60ggy","","null","audio/norm_nissle.mp3","","null","","","",""
"html-button-response","50","218067","0.0-50.0","sh9zoc78vo60ggy","","5434","","0","","nsc-label-first","1-1","<img src=""img/2.png"" width=""40%"" />","<img src=""img/6.png"" width=""40%"" />"
"audio-keyboard-response","51","221572","0.0-51.0","sh9zoc78vo60ggy","","null","audio/goodjob.wav","","null","","","",""
"audio-keyboard-response","52","224575","0.0-52.0","sh9zoc78vo60ggy","","null","audio/norm_touch_duck.mp3","","null","","","",""
"video-keyboard-response-mod","53","242218","0.0-53.0","sh9zoc78vo60ggy","","null","","","null","nsc-label-last","1-1","",""
"audio-keyboard-response","54","246082","0.0-54.0","sh9zoc78vo60ggy","","null","audio/norm_miffle.mp3","","null","","","",""
"html-button-response","55","247569","0.0-55.0","sh9zoc78vo60ggy","","1485.000000000029","","1","","nsc-label-last","1-1","<img src=""img/12.png"" width=""40%"" />","<img src=""img/16.png"" width=""40%"" />"
"audio-keyboard-response","56","250943","0.0-56.0","sh9zoc78vo60ggy","","null","audio/norm_miffle.mp3","","null","","","",""
"html-button-response","57","252080","0.0-57.0","sh9zoc78vo60ggy","","1135","","1","","nsc-label-last","1-1","<img src=""img/12.png"" width=""40%"" />","<img src=""img/16.png"" width=""40%"" />"
"audio-keyboard-response","58","255449","0.0-58.0","sh9zoc78vo60ggy","","null","audio/norm_zibo.mp3","","null","","","",""
"html-button-response","59","256653","0.0-59.0","sh9zoc78vo60ggy","","1201.000000000029","","0","","nsc-label-last","1-1","<img src=""img/12.png"" width=""40%"" />","<img src=""img/16.png"" width=""40%"" />"
"audio-keyboard-response","60","260020","0.0-60.0","sh9zoc78vo60ggy","","null","audio/norm_zibo.mp3","","null","","","",""
"html-button-response","61","261161","0.0-61.0","sh9zoc78vo60ggy","","1139.999999999971","","1","","nsc-label-last","1-1","<img src=""img/16.png"" width=""40%"" />","<img src=""img/12.png"" width=""40%"" />"
"audio-keyboard-response","62","264665","0.0-62.0","sh9zoc78vo60ggy","","null","audio/norm_touch_duck.mp3","","null","","","",""
"video-keyboard-response-mod","63","281902","0.0-63.0","sh9zoc78vo60ggy","","null","","","null","nsc-label-last","1-1","",""
"audio-keyboard-response","64","285771","0.0-64.0","sh9zoc78vo60ggy","","null","audio/norm_reko.mp3","","null","","","",""
"html-button-response","65","287727","0.0-65.0","sh9zoc78vo60ggy","","1953","","1","","nsc-label-last","1-1","<img src=""img/8.png"" width=""40%"" />","<img src=""img/4.png"" width=""40%"" />"
"audio-keyboard-response","66","291094","0.0-66.0","sh9zoc78vo60ggy","","null","audio/norm_vugim.mp3","","null","","","",""
"html-button-response","67","294534","0.0-67.0","sh9zoc78vo60ggy","","3438","","1","","nsc-label-last","1-1","<img src=""img/4.png"" width=""40%"" />","<img src=""img/8.png"" width=""40%"" />"
"audio-keyboard-response","68","297899","0.0-68.0","sh9zoc78vo60ggy","","null","audio/norm_reko.mp3","","null","","","",""
"html-button-response","69","299168","0.0-69.0","sh9zoc78vo60ggy","","1266","","1","","nsc-label-last","1-1","<img src=""img/8.png"" width=""40%"" />","<img src=""img/4.png"" width=""40%"" />"
"audio-keyboard-response","70","302531","0.0-70.0","sh9zoc78vo60ggy","","null","audio/norm_vugim.mp3","","null","","","",""
"html-button-response","71","304542","0.0-71.0","sh9zoc78vo60ggy","","2008","","0","","nsc-label-last","1-1","<img src=""img/8.png"" width=""40%"" />","<img src=""img/4.png"" width=""40%"" />"
"audio-keyboard-response","72","308047","0.0-72.0","sh9zoc78vo60ggy","","null","audio/goodjob.wav","","null","","","",""
"audio-keyboard-response","73","311050","0.0-73.0","sh9zoc78vo60ggy","","null","audio/norm_touch_duck.mp3","","null","","","",""
"video-keyboard-response-mod","74","329102","0.0-74.0","sh9zoc78vo60ggy","","null","","","null","sc-label-last","1-1","",""
"audio-keyboard-response","75","332973","0.0-75.0","sh9zoc78vo60ggy","","null","audio/norm_jimo.mp3","","null","","","",""
"html-button-response","76","335386","0.0-76.0","sh9zoc78vo60ggy","","2410.000000000058","","0","","sc-label-last","1-1","<img src=""img/10.png"" width=""40%"" />","<img src=""img/11.png"" width=""40%"" />"
"audio-keyboard-response","77","338751","0.0-77.0","sh9zoc78vo60ggy","","null","audio/norm_klefu.mp3","","null","","","",""
"html-button-response","78","342768","0.0-78.0","sh9zoc78vo60ggy","","4013.999999999942","","0","","sc-label-last","1-1","<img src=""img/11.png"" width=""40%"" />","<img src=""img/10.png"" width=""40%"" />"
"audio-keyboard-response","79","346135","0.0-79.0","sh9zoc78vo60ggy","","null","audio/norm_jimo.mp3","","null","","","",""
"html-button-response","80","347817","0.0-80.0","sh9zoc78vo60ggy","","1679","","0","","sc-label-last","1-1","<img src=""img/10.png"" width=""40%"" />","<img src=""img/11.png"" width=""40%"" />"
"audio-keyboard-response","81","351183","0.0-81.0","sh9zoc78vo60ggy","","null","audio/norm_klefu.mp3","","null","","","",""
"html-button-response","82","373760","0.0-82.0","sh9zoc78vo60ggy","","22568.00000000006","","1","","sc-label-last","1-1","<img src=""img/10.png"" width=""40%"" />","<img src=""img/11.png"" width=""40%"" />"
"audio-keyboard-response","83","377267","0.0-83.0","sh9zoc78vo60ggy","","null","audio/goodjob.wav","","null","","","",""
"audio-keyboard-response","84","380271","0.0-84.0","sh9zoc78vo60ggy","","null","audio/norm_touch_duck.mp3","","null","","","",""
"video-keyboard-response-mod","85","398662","0.0-85.0","sh9zoc78vo60ggy","","null","","","null","sc-label-last","1-1","",""
"audio-keyboard-response","86","402528","0.0-86.0","sh9zoc78vo60ggy","","null","audio/norm_tentle.mp3","","null","","","",""
"html-button-response","87","407064","0.0-87.0","sh9zoc78vo60ggy","","4534","","0","","sc-label-last","1-1","<img src=""img/3.png"" width=""40%"" />","<img src=""img/7.png"" width=""40%"" />"
"audio-keyboard-response","88","410430","0.0-88.0","sh9zoc78vo60ggy","","null","audio/norm_tentle.mp3","","null","","","",""
"html-button-response","89","412197","0.0-89.0","sh9zoc78vo60ggy","","1763","","0","","sc-label-last","1-1","<img src=""img/3.png"" width=""40%"" />","<img src=""img/7.png"" width=""40%"" />"
"audio-keyboard-response","90","415562","0.0-90.0","sh9zoc78vo60ggy","","null","audio/norm_paegu.mp3","","null","","","",""
"html-button-response","91","416965","0.0-91.0","sh9zoc78vo60ggy","","1401","","0","","sc-label-last","1-1","<img src=""img/7.png"" width=""40%"" />","<img src=""img/3.png"" width=""40%"" />"
"audio-keyboard-response","92","420321","0.0-92.0","sh9zoc78vo60ggy","","null","audio/norm_paegu.mp3","","null","","","",""
"html-button-response","93","421831","0.0-93.0","sh9zoc78vo60ggy","","1511","","0","","sc-label-last","1-1","<img src=""img/7.png"" width=""40%"" />","<img src=""img/3.png"" width=""40%"" />"
"audio-keyboard-response","94","425329","0.0-94.0","sh9zoc78vo60ggy","","null","audio/goodjob.wav","","null","","","",""
"image-keyboard-response","95","428332","0.0-95.0","sh9zoc78vo60ggy","","null","img/welldone.jpg","","null","","","",""
